reward_today,future_reward,delay,trials.thisRepN,trials.thisTrialN,trials.thisN,trials.thisIndex,thisRow.t,notes,insturctions.started,key_instruct.started,insturctions.stopped,key_instruct.keys,key_instruct.rt,key_instruct.duration,trial.started,polygon.started,choice.started,polygon.stopped,trial.stopped,response.keys,response.rt,response.duration,participant,session,date,expName,psychopyVersion,frameRate,expStart,
,,,,,,,,,0.03762325004208833,0.06663491600193083,4.442935207975097,space,4.296775458962657,None,,,,,,,,,muskan_final,001,2023-11-23_14h57.08.258,experiment,2023.2.2,119.99700097411905,2023-11-23 14h59.41.885205 +0530,
99,110,117,0,0,0,90,4.553945125080645,,,,,,,,4.471760499989614,4.553945125080645,5.4380478750681505,5.543919250019826,8.279163541039452,t,2.828147124964744,None,muskan_final,001,2023-11-23_14h57.08.258,experiment,2023.2.2,119.99700097411905,2023-11-23 14h59.41.885205 +0530,
98,99,59,0,1,1,10,8.29968491604086,,,,,,,,8.280259457998909,8.29968491604086,9.279911749996245,9.294349708012305,11.57297895802185,t,2.2842304160585627,None,muskan_final,001,2023-11-23_14h57.08.258,experiment,2023.2.2,119.99700097411905,2023-11-23 14h59.41.885205 +0530,
37,44,98,0,2,2,61,11.589903458021581,,,,,,,,11.573727332986891,11.589903458021581,12.57156562502496,12.588219415978529,14.972926125046797,t,2.3839428749633953,None,muskan_final,001,2023-11-23_14h57.08.258,experiment,2023.2.2,119.99700097411905,2023-11-23 14h59.41.885205 +0530,
49,80,83,0,3,3,32,14.987936499994248,,,,,,,,14.973646375001408,14.987936499994248,15.971684625023045,15.9778406660771,20.1466902079992,l,4.1617467909818515,None,muskan_final,001,2023-11-23_14h57.08.258,experiment,2023.2.2,119.99700097411905,2023-11-23 14h59.41.885205 +0530,
12,52,113,0,4,4,70,20.162665375042707,,,,,,,,20.147483916021883,20.162665375042707,21.14714733301662,21.155124041019008,24.329688832978718,l,3.1780989159597084,None,muskan_final,001,2023-11-23_14h57.08.258,experiment,2023.2.2,119.99700097411905,2023-11-23 14h59.41.885205 +0530,
41,80,85,0,5,5,68,24.344708041055128,,,,,,,,24.330409749993123,24.344708041055128,25.321949916076846,25.338951874990016,27.4136692910688,l,2.0704960830044,None,muskan_final,001,2023-11-23_14h57.08.258,experiment,2023.2.2,119.99700097411905,2023-11-23 14h59.41.885205 +0530,
82,91,72,0,6,6,11,27.42757854098454,,,,,,,,27.414271583082154,27.42757854098454,28.41326816601213,28.422098207985982,30.356899125035852,t,1.9361486660782248,None,muskan_final,001,2023-11-23_14h57.08.258,experiment,2023.2.2,119.99700097411905,2023-11-23 14h59.41.885205 +0530,
81,91,89,0,7,7,38,30.37437554099597,,,,,,,,30.357678874977864,30.37437554099597,31.355479374993593,31.372118166065775,33.823716875049286,t,2.451818041037768,None,muskan_final,001,2023-11-23_14h57.08.258,experiment,2023.2.2,119.99700097411905,2023-11-23 14h59.41.885205 +0530,
99,135,54,0,8,8,84,33.840766999986954,,,,,,,,33.824684540973976,33.840766999986954,34.82227220805362,34.83896416600328,37.124559625051916,l,2.292687249951996,None,muskan_final,001,2023-11-23_14h57.08.258,experiment,2023.2.2,119.99700097411905,2023-11-23 14h59.41.885205 +0530,
5,9,44,0,9,9,35,37.140771666076034,,,,,,,,37.12534725002479,37.140771666076034,38.122341708047315,38.138975291047245,40.20696054107975,t,2.0673712090356275,None,muskan_final,001,2023-11-23_14h57.08.258,experiment,2023.2.2,119.99700097411905,2023-11-23 14h59.41.885205 +0530,
53,125,40,0,10,10,71,40.222609249991365,,,,,,,,40.20768012502231,40.222609249991365,41.20591116603464,41.21199495799374,42.96381908305921,l,1.7493596250424162,None,muskan_final,001,2023-11-23_14h57.08.258,experiment,2023.2.2,119.99700097411905,2023-11-23 14h59.41.885205 +0530,
87,102,103,0,11,11,97,42.97771962499246,,,,,,,,42.96449124999344,42.97771962499246,43.96438100002706,43.97264975006692,46.357381790992804,l,2.3889275830006227,None,muskan_final,001,2023-11-23_14h57.08.258,experiment,2023.2.2,119.99700097411905,2023-11-23 14h59.41.885205 +0530,
79,134,67,0,12,12,59,46.37497158301994,,,,,,,,46.358100833022036,46.37497158301994,47.35598433308769,47.37265487504192,48.89767750003375,l,1.5326790839899331,None,muskan_final,001,2023-11-23_14h57.08.258,experiment,2023.2.2,119.99700097411905,2023-11-23 14h59.41.885205 +0530,
73,94,103,0,13,13,49,48.91251308307983,,,,,,,,48.89838558307383,48.91251308307983,49.89850545802619,49.906334958039224,51.62422500003595,l,1.7219282500445843,None,muskan_final,001,2023-11-23_14h57.08.258,experiment,2023.2.2,119.99700097411905,2023-11-23 14h59.41.885205 +0530,
97,105,66,0,14,14,26,51.639563750009984,,,,,,,,51.62492904101964,51.639563750009984,52.622812999994494,52.629355582990684,55.658486249973066,t,3.0275017499225214,None,muskan_final,001,2023-11-23_14h57.08.258,experiment,2023.2.2,119.99700097411905,2023-11-23 14h59.41.885205 +0530,
4,40,111,0,15,15,33,55.67376858298667,,,,,,,,55.65925770800095,55.67376858298667,56.65656383300666,56.663159125018865,58.24080716597382,l,1.5679668330121785,None,muskan_final,001,2023-11-23_14h57.08.258,experiment,2023.2.2,119.99700097411905,2023-11-23 14h59.41.885205 +0530,
78,113,105,0,16,16,24,58.25521562504582,,,,,,,,58.241499957977794,58.25521562504582,59.23971358302515,59.24582979106344,60.824483833042905,l,1.5694459580117837,None,muskan_final,001,2023-11-23_14h57.08.258,experiment,2023.2.2,119.99700097411905,2023-11-23 14h59.41.885205 +0530,
49,60,89,0,17,17,4,60.83997241605539,,,,,,,,60.82519066601526,60.83997241605539,61.82315816602204,61.82983175001573,63.88115137501154,t,2.0456542090978473,None,muskan_final,001,2023-11-23_14h57.08.258,experiment,2023.2.2,119.99700097411905,2023-11-23 14h59.41.885205 +0530,
94,131,103,0,18,18,41,63.89499920804519,,,,,,,,63.88186070800293,63.89499920804519,64.88237937504891,64.88890416605864,66.59065208304673,l,1.701886250055395,None,muskan_final,001,2023-11-23_14h57.08.258,experiment,2023.2.2,119.99700097411905,2023-11-23 14h59.41.885205 +0530,
33,101,48,0,19,19,82,66.60560441599227,,,,,,,,66.59138125006575,66.60560441599227,67.58177966601215,67.59488187497482,69.12469970807433,l,1.522239499958232,None,muskan_final,001,2023-11-23_14h57.08.258,experiment,2023.2.2,119.99700097411905,2023-11-23 14h59.41.885205 +0530,
29,33,137,0,20,20,89,69.13958741608076,,,,,,,,69.12541491608135,69.13958741608076,70.12331629102118,70.1293974580476,74.14150545804296,t,4.0081679170252755,None,muskan_final,001,2023-11-23_14h57.08.258,experiment,2023.2.2,119.99700097411905,2023-11-23 14h59.41.885205 +0530,
91,105,56,0,21,21,95,74.15628450002987,,,,,,,,74.1422071250854,74.15628450002987,75.14014545804821,75.14633145800326,76.62496337504126,t,1.4683952080085874,None,muskan_final,001,2023-11-23_14h57.08.258,experiment,2023.2.2,119.99700097411905,2023-11-23 14h59.41.885205 +0530,
11,61,65,0,22,22,30,76.64093929098453,,,,,,,,76.62573941599112,76.64093929098453,77.62354329100344,77.62973849999253,79.03091087506618,l,1.394807125092484,None,muskan_final,001,2023-11-23_14h57.08.258,experiment,2023.2.2,119.99700097411905,2023-11-23 14h59.41.885205 +0530,
42,61,112,0,23,23,72,79.04487104108557,,,,,,,,79.03151375008747,79.04487104108557,80.02310116600711,80.04058212507516,84.47503383306321,l,4.441175415995531,None,muskan_final,001,2023-11-23_14h57.08.258,experiment,2023.2.2,119.99700097411905,2023-11-23 14h59.41.885205 +0530,
35,100,40,0,24,24,94,84.49051833304111,,,,,,,,84.47562270797789,84.49051833304111,85.47377808298916,85.48032587498892,88.43145591602661,l,2.944940165965818,None,muskan_final,001,2023-11-23_14h57.08.258,experiment,2023.2.2,119.99700097411905,2023-11-23 14h59.41.885205 +0530,
33,103,62,0,25,25,48,88.44518375000916,,,,,,,,88.43204733298626,88.44518375000916,89.42388979101088,89.44054233306088,90.53166025003884,l,1.094899583957158,None,muskan_final,001,2023-11-23_14h57.08.258,experiment,2023.2.2,119.99700097411905,2023-11-23 14h59.41.885205 +0530,
73,91,62,0,26,26,20,90.54022766603157,,,,,,,,90.5320115829818,90.54022766603157,91.52393241599202,91.52976537507493,91.5421123750275,l,-0.9332721249666065,0.044573041959665716,muskan_final,001,2023-11-23_14h57.08.258,experiment,2023.2.2,119.99700097411905,2023-11-23 14h59.41.885205 +0530,
84,145,119,0,27,27,92,91.55534683307633,,,,,,,,91.54287362506147,91.55534683307633,92.5406971250195,92.54684950003866,94.64884512498975,l,2.1003811249975115,None,muskan_final,001,2023-11-23_14h57.08.258,experiment,2023.2.2,119.99700097411905,2023-11-23 14h59.41.885205 +0530,
20,82,42,0,28,28,23,94.66400608303957,,,,,,,,94.64952550001908,94.66400608303957,95.65050591598265,95.65738720807713,98.84874329098966,l,3.195658915909007,None,muskan_final,001,2023-11-23_14h57.08.258,experiment,2023.2.2,119.99700097411905,2023-11-23 14h59.41.885205 +0530,
40,55,62,0,29,29,3,98.86382375005633,,,,,,,,98.84949675004464,98.86382375005633,99.84940037503839,99.85752887499984,102.70893270801753,t,2.854521582950838,None,muskan_final,001,2023-11-23_14h57.08.258,experiment,2023.2.2,119.99700097411905,2023-11-23 14h59.41.885205 +0530,
90,117,107,0,30,30,37,102.72409987507854,,,,,,,,102.70966566598509,102.72409987507854,103.70770608307794,103.71373233303893,105.05896675004624,l,1.3387605829630047,None,muskan_final,001,2023-11-23_14h57.08.258,experiment,2023.2.2,119.99700097411905,2023-11-23 14h59.41.885205 +0530,
44,47,43,0,31,31,79,105.07479566603433,,,,,,,,105.05970287497621,105.07479566603433,106.05781012505759,106.06410545797553,107.63264870806597,t,1.5629821249749511,None,muskan_final,001,2023-11-23_14h57.08.258,experiment,2023.2.2,119.99700097411905,2023-11-23 14h59.41.885205 +0530,
27,50,21,0,32,32,2,107.64668216602877,,,,,,,,107.63337775005493,107.64668216602877,108.63365762506146,108.64131637499668,111.59881583298557,l,2.961306249955669,None,muskan_final,001,2023-11-23_14h57.08.258,experiment,2023.2.2,119.99700097411905,2023-11-23 14h59.41.885205 +0530,
86,91,44,0,33,33,8,111.61946120799985,,,,,,,,111.599435250042,111.61946120799985,112.59965116600506,112.6138870830182,114.45932241599075,t,1.8549720000009984,None,muskan_final,001,2023-11-23_14h57.08.258,experiment,2023.2.2,119.99700097411905,2023-11-23 14h59.41.885205 +0530,
28,83,112,0,34,34,28,114.4737404580228,,,,,,,,114.460026249988,114.4737404580228,115.45799883303698,115.46407604101114,117.15937816607766,l,1.6855780829209834,None,muskan_final,001,2023-11-23_14h57.08.258,experiment,2023.2.2,119.99700097411905,2023-11-23 14h59.41.885205 +0530,
89,161,107,0,35,35,60,117.17431475000922,,,,,,,,117.16008854098618,117.17431475000922,118.158203665982,118.16435650002677,122.13254324998707,l,3.9656972920056432,None,muskan_final,001,2023-11-23_14h57.08.258,experiment,2023.2.2,119.99700097411905,2023-11-23 14h59.41.885205 +0530,
74,131,92,0,36,36,64,122.14631691598333,,,,,,,,122.13326104101725,122.14631691598333,123.12483395799063,123.14148854103405,127.08330916601699,l,3.947513291030191,None,muskan_final,001,2023-11-23_14h57.08.258,experiment,2023.2.2,119.99700097411905,2023-11-23 14h59.41.885205 +0530,
88,104,129,0,37,37,69,127.0976306659868,,,,,,,,127.08403512497898,127.0976306659868,128.08435837505385,128.0910285830032,130.37639070802834,l,2.2869793329155073,None,muskan_final,001,2023-11-23_14h57.08.258,experiment,2023.2.2,119.99700097411905,2023-11-23 14h59.41.885205 +0530,
37,72,107,0,38,38,67,130.3912107499782,,,,,,,,130.3770970000187,130.3912107499782,131.37514262506738,131.38164695806336,132.8432092909934,l,1.452857333002612,None,muskan_final,001,2023-11-23_14h57.08.258,experiment,2023.2.2,119.99700097411905,2023-11-23 14h59.41.885205 +0530,
9,53,136,0,39,39,85,132.85834795807023,,,,,,,,132.84392125008162,132.85834795807023,133.84192970802542,133.8485953330528,135.99959891603794,l,2.1456701660063118,None,muskan_final,001,2023-11-23_14h57.08.258,experiment,2023.2.2,119.99700097411905,2023-11-23 14h59.41.885205 +0530,
83,86,110,0,40,40,39,136.0139024159871,,,,,,,,136.00031858298462,136.0139024159871,137.00043154100422,137.0087199159898,139.43294266599696,t,2.428619208978489,None,muskan_final,001,2023-11-23_14h57.08.258,experiment,2023.2.2,119.99700097411905,2023-11-23 14h59.41.885205 +0530,
25,89,129,0,41,41,27,139.44709858298302,,,,,,,,139.43361762503628,139.44709858298302,140.43461716605816,140.44128733302932,142.01015612506308,l,1.5677716670325026,None,muskan_final,001,2023-11-23_14h57.08.258,experiment,2023.2.2,119.99700097411905,2023-11-23 14h59.41.885205 +0530,
10,61,58,0,42,42,53,142.02625250001438,,,,,,,,142.01087574998382,142.02625250001438,143.0082940410357,143.02547079103533,144.483815915999,l,1.466157624963671,None,muskan_final,001,2023-11-23_14h57.08.258,experiment,2023.2.2,119.99700097411905,2023-11-23 14h59.41.885205 +0530,
85,140,134,0,43,43,44,144.49844620807562,,,,,,,,144.48450933303684,144.49844620807562,145.48430650006048,145.49214837502223,146.6330870409729,l,1.142131624976173,None,muskan_final,001,2023-11-23_14h57.08.258,experiment,2023.2.2,119.99700097411905,2023-11-23 14h59.41.885205 +0530,
20,26,77,0,44,44,78,146.64871041604783,,,,,,,,146.63379475008696,146.64871041604783,147.62552050000522,147.64226708305068,149.2268911250867,t,1.5872737920144573,None,muskan_final,001,2023-11-23_14h57.08.258,experiment,2023.2.2,119.99700097411905,2023-11-23 14h59.41.885205 +0530,
6,74,130,0,45,45,96,149.2417166250525,,,,,,,,149.2274781659944,149.2417166250525,150.26827470806893,150.27615637506824,151.55979329103138,l,1.2863871660083532,None,muskan_final,001,2023-11-23_14h57.08.258,experiment,2023.2.2,119.99700097411905,2023-11-23 14h59.41.885205 +0530,
35,62,109,0,46,46,58,151.57274149998557,,,,,,,,151.560615165974,151.57274149998557,152.5510620410787,152.56406000000425,155.17708866600879,l,2.6045295420335606,None,muskan_final,001,2023-11-23_14h57.08.258,experiment,2023.2.2,119.99700097411905,2023-11-23 14h59.41.885205 +0530,
93,145,55,0,47,47,98,155.19260254106484,,,,,,,,155.17783420800697,155.19260254106484,156.17534462502226,156.18148908298463,157.81042287498713,l,1.6249042919371277,None,muskan_final,001,2023-11-23_14h57.08.258,experiment,2023.2.2,119.99700097411905,2023-11-23 14h59.41.885205 +0530,
23,52,91,0,48,48,31,157.8256797910435,,,,,,,,157.8111478750361,157.8256797910435,158.80926233308855,158.815805500024,161.93370920803864,t,3.114820500020869,None,muskan_final,001,2023-11-23_14h57.08.258,experiment,2023.2.2,119.99700097411905,2023-11-23 14h59.41.885205 +0530,
1,165,122,0,49,49,7,161.9478228330845,,,,,,,,161.93443095800467,161.9478228330845,162.93488929106388,162.94268229103182,164.81089070800226,l,1.8655440419679508,None,muskan_final,001,2023-11-23_14h57.08.258,experiment,2023.2.2,119.99700097411905,2023-11-23 14h59.41.885205 +0530,
52,79,91,0,50,50,47,164.82586229103617,,,,,,,,164.8116264999844,164.82586229103617,165.80953108298127,165.81605695805047,168.12764733307995,t,2.3080065000103787,None,muskan_final,001,2023-11-23_14h57.08.258,experiment,2023.2.2,119.99700097411905,2023-11-23 14h59.41.885205 +0530,
33,72,55,0,51,51,52,168.142998041003,,,,,,,,168.12835320807062,168.142998041003,169.1261560000712,169.13245300005656,170.61093804100528,l,1.4696962089510635,None,muskan_final,001,2023-11-23_14h57.08.258,experiment,2023.2.2,119.99700097411905,2023-11-23 14h59.41.885205 +0530,
20,21,83,0,52,52,81,170.62584304099437,,,,,,,,170.61167500005104,170.62584304099437,171.6096947910264,171.6164338750532,172.96718875004444,t,1.347950541996397,None,muskan_final,001,2023-11-23_14h57.08.258,experiment,2023.2.2,119.99700097411905,2023-11-23 14h59.41.885205 +0530,
79,150,86,0,53,53,43,172.98141612508334,,,,,,,,172.96779237501323,172.98141612508334,173.96813699998893,173.97631683305372,174.96760575007647,l,0.9944831670727581,None,muskan_final,001,2023-11-23_14h57.08.258,experiment,2023.2.2,119.99700097411905,2023-11-23 14h59.41.885205 +0530,
32,76,87,0,54,54,22,174.98145962506533,,,,,,,,174.9681954580592,174.98145962506533,175.96831262507476,175.9763105000602,177.29445391602349,l,1.3221043340163305,None,muskan_final,001,2023-11-23_14h57.08.258,experiment,2023.2.2,119.99700097411905,2023-11-23 14h59.41.885205 +0530,
58,129,135,0,55,55,21,177.30978887504898,,,,,,,,177.29515700007323,177.30978887504898,178.29321154102217,178.29932666604873,179.2943198750727,l,0.9895128749776632,None,muskan_final,001,2023-11-23_14h57.08.258,experiment,2023.2.2,119.99700097411905,2023-11-23 14h59.41.885205 +0530,
81,141,112,0,56,56,15,179.309519500006,,,,,,,,179.29503787506837,179.309519500006,180.29313358303625,180.29963512497488,181.66131425008643,l,1.3522845830302685,None,muskan_final,001,2023-11-23_14h57.08.258,experiment,2023.2.2,119.99700097411905,2023-11-23 14h59.41.885205 +0530,
73,132,95,0,57,57,63,181.6762216250645,,,,,,,,181.6620273750741,181.6762216250645,182.65999333304353,182.6665963330306,183.76081029104535,l,1.0839240830391645,None,muskan_final,001,2023-11-23_14h57.08.258,experiment,2023.2.2,119.99700097411905,2023-11-23 14h59.41.885205 +0530,
57,121,60,0,58,58,19,183.77560379100032,,,,,,,,183.76140645798296,183.77560379100032,184.75290116597898,184.76670945808291,185.97858470806386,l,1.2169138749595731,None,muskan_final,001,2023-11-23_14h57.08.258,experiment,2023.2.2,119.99700097411905,2023-11-23 14h59.41.885205 +0530,
94,111,133,0,59,59,74,185.9932291660225,,,,,,,,185.97928362502716,185.9932291660225,186.97686154104304,186.98297887505032,188.11122241604608,l,1.1188906249590218,None,muskan_final,001,2023-11-23_14h57.08.258,experiment,2023.2.2,119.99700097411905,2023-11-23 14h59.41.885205 +0530,
78,80,162,0,60,60,6,188.12560937507078,,,,,,,,188.1118335829815,188.12560937507078,189.11001462501008,189.1165780830197,191.8615641250508,t,2.7380412090569735,None,muskan_final,001,2023-11-23_14h57.08.258,experiment,2023.2.2,119.99700097411905,2023-11-23 14h59.41.885205 +0530,
82,92,137,0,61,61,91,191.8765124999918,,,,,,,,191.8622674579965,191.8765124999918,192.86029883299489,192.86652162508108,195.1115653750021,t,2.2359539590543136,None,muskan_final,001,2023-11-23_14h57.08.258,experiment,2023.2.2,119.99700097411905,2023-11-23 14h59.41.885205 +0530,
22,50,98,0,62,62,55,195.12687145802192,,,,,,,,195.11228333308827,195.12687145802192,196.1102033330826,196.11642237508204,197.60238566598855,l,1.4779309580335394,None,muskan_final,001,2023-11-23_14h57.08.258,experiment,2023.2.2,119.99700097411905,2023-11-23 14h59.41.885205 +0530,
11,30,7,0,63,63,0,197.61697700002696,,,,,,,,197.60310395807028,197.61697700002696,198.60214183304925,198.61028954107314,200.47901104099583,t,1.8754075829638168,None,muskan_final,001,2023-11-23_14h57.08.258,experiment,2023.2.2,119.99700097411905,2023-11-23 14h59.41.885205 +0530,
14,41,48,0,64,64,29,200.49450270808302,,,,,,,,200.47971429105382,200.49450270808302,201.47702408302575,201.48366120806895,203.99555624998175,t,2.51048583292868,None,muskan_final,001,2023-11-23_14h57.08.258,experiment,2023.2.2,119.99700097411905,2023-11-23 14h59.41.885205 +0530,
85,94,89,0,65,65,18,204.01197325007524,,,,,,,,203.99626566597726,204.01197325007524,204.99379116599448,205.0104162080679,206.21179091604427,t,1.200687500066124,None,muskan_final,001,2023-11-23_14h57.08.258,experiment,2023.2.2,119.99700097411905,2023-11-23 14h59.41.885205 +0530,
17,56,105,0,66,66,65,206.2265462500509,,,,,,,,206.21249925007578,206.2265462500509,207.2105674580671,207.217078375048,209.32867045805324,l,2.110140333068557,None,muskan_final,001,2023-11-23_14h57.08.258,experiment,2023.2.2,119.99700097411905,2023-11-23 14h59.41.885205 +0530,
15,35,13,0,67,67,1,209.34449095802847,,,,,,,,209.32937237503938,209.34449095802847,210.3272862500744,210.33384212502278,212.91892279102467,l,2.581070291926153,None,muskan_final,001,2023-11-23_14h57.08.258,experiment,2023.2.2,119.99700097411905,2023-11-23 14h59.41.885205 +0530,
70,137,64,0,68,68,56,212.9379379580496,,,,,,,,212.9205852500163,212.9379379580496,213.9193417080678,213.9332566660596,215.72866250004154,l,1.804633166990243,None,muskan_final,001,2023-11-23_14h57.08.258,experiment,2023.2.2,119.99700097411905,2023-11-23 14h59.41.885205 +0530,
18,86,40,0,69,69,93,215.744810541044,,,,,,,,215.72937525005545,215.744810541044,216.72743075003382,216.7340035000816,218.74576600000728,l,2.0064593330025673,None,muskan_final,001,2023-11-23_14h57.08.258,experiment,2023.2.2,119.99700097411905,2023-11-23 14h59.41.885205 +0530,
5,63,106,0,70,70,57,218.76104895805474,,,,,,,,218.74648245808203,218.76104895805474,219.74418287503067,219.75030204106588,221.2618007500423,l,1.5026184159796685,None,muskan_final,001,2023-11-23_14h57.08.258,experiment,2023.2.2,119.99700097411905,2023-11-23 14h59.41.885205 +0530,
86,157,50,0,71,71,40,221.27694995806087,,,,,,,,221.2625233749859,221.27694995806087,222.25356962508522,222.26679725002032,224.14532125007827,l,1.873623999999836,None,muskan_final,001,2023-11-23_14h57.08.258,experiment,2023.2.2,119.99700097411905,2023-11-23 14h59.41.885205 +0530,
61,114,138,0,72,72,66,224.16054962505586,,,,,,,,224.14604020805564,224.16054962505586,225.14447958301753,225.15055008302443,226.56248791597318,l,1.405884417006746,None,muskan_final,001,2023-11-23_14h57.08.258,experiment,2023.2.2,119.99700097411905,2023-11-23 14h59.41.885205 +0530,
11,79,86,0,73,73,34,226.57848654105328,,,,,,,,226.56320083304308,226.57848654105328,227.56104037503246,227.56762170803268,230.41929045808502,l,2.849555875058286,None,muskan_final,001,2023-11-23_14h57.08.258,experiment,2023.2.2,119.99700097411905,2023-11-23 14h59.41.885205 +0530,
37,81,49,0,74,74,36,230.43329062499106,,,,,,,,230.42000400007237,230.43329062499106,231.4205303749768,231.4271183750825,232.553251208039,l,1.131306958035566,None,muskan_final,001,2023-11-23_14h57.08.258,experiment,2023.2.2,119.99700097411905,2023-11-23 14h59.41.885205 +0530,
95,109,72,0,75,75,76,232.5677018329734,,,,,,,,232.55395337508526,232.5677018329734,233.55341158306692,233.5611930830637,234.76272758306004,t,1.2033491249894723,None,muskan_final,001,2023-11-23_14h57.08.258,experiment,2023.2.2,119.99700097411905,2023-11-23 14h59.41.885205 +0530,
62,120,125,0,76,76,83,234.7778450830374,,,,,,,,234.76345937501173,234.7778450830374,235.76130095799454,235.76761308300775,237.07999183307402,l,1.3108966250438243,None,muskan_final,001,2023-11-23_14h57.08.258,experiment,2023.2.2,119.99700097411905,2023-11-23 14h59.41.885205 +0530,
96,146,108,0,77,77,17,237.09495562501252,,,,,,,,237.08071300003212,237.09495562501252,238.0781498750439,238.08424520806875,239.26898283301853,l,1.1783851250074804,None,muskan_final,001,2023-11-23_14h57.08.258,experiment,2023.2.2,119.99700097411905,2023-11-23 14h59.41.885205 +0530,
92,135,133,0,78,78,12,239.283239374985,,,,,,,,239.26969054108486,239.283239374985,240.26943579106592,240.2781466250308,242.62961004104,t,2.3529066250193864,None,muskan_final,001,2023-11-23_14h57.08.258,experiment,2023.2.2,119.99700097411905,2023-11-23 14h59.41.885205 +0530,
78,140,135,0,79,79,51,242.64451912499499,,,,,,,,242.6303339160513,242.64451912499499,243.6281640829984,243.63439654104877,245.26273466600105,l,1.6195049580419436,None,muskan_final,001,2023-11-23_14h57.08.258,experiment,2023.2.2,119.99700097411905,2023-11-23 14h59.41.885205 +0530,
81,94,112,0,80,80,46,245.27730475005228,,,,,,,,245.26331629103515,245.27730475005228,246.26161366607994,246.26781670807395,250.09629870799836,t,3.8181966660777107,None,muskan_final,001,2023-11-23_14h57.08.258,experiment,2023.2.2,119.99700097411905,2023-11-23 14h59.41.885205 +0530,
10,31,69,0,81,81,50,250.11160920804832,,,,,,,,250.09702295798343,250.11160920804832,251.09506187506486,251.10114891605917,253.12019645806868,t,2.017467666999437,None,muskan_final,001,2023-11-23_14h57.08.258,experiment,2023.2.2,119.99700097411905,2023-11-23 14h59.41.885205 +0530,
59,91,120,0,82,82,9,253.13465570798144,,,,,,,,253.1209135830868,253.13465570798144,254.12088429101277,254.1277418329846,257.4298140410101,t,3.303388625034131,None,muskan_final,001,2023-11-23_14h57.08.258,experiment,2023.2.2,119.99700097411905,2023-11-23 14h59.41.885205 +0530,
15,48,114,0,83,83,80,257.4454491250217,,,,,,,,257.4305368750356,257.4454491250217,258.428548707976,258.4348080410855,260.91348120803013,t,2.4722970420261845,None,muskan_final,001,2023-11-23_14h57.08.258,experiment,2023.2.2,119.99700097411905,2023-11-23 14h59.41.885205 +0530,
74,111,129,0,84,84,13,260.92914429097436,,,,,,,,260.9143546660198,260.92914429097436,261.91203258302994,261.9182814580854,264.2798497910844,t,2.3564994169864804,None,muskan_final,001,2023-11-23_14h57.08.258,experiment,2023.2.2,119.99700097411905,2023-11-23 14h59.41.885205 +0530,
82,92,139,0,85,85,42,264.2947255000472,,,,,,,,264.28055895806756,264.2947255000472,265.278805540991,265.2853355000261,266.8133394160541,t,1.5218096669996157,None,muskan_final,001,2023-11-23_14h57.08.258,experiment,2023.2.2,119.99700097411905,2023-11-23 14h59.41.885205 +0530,
93,123,44,0,86,86,77,266.82811816607136,,,,,,,,266.81406508304644,266.82811816607136,267.8122102500638,267.81825237500016,270.9136589160189,t,3.0897074160166085,None,muskan_final,001,2023-11-23_14h57.08.258,experiment,2023.2.2,119.99700097411905,2023-11-23 14h59.41.885205 +0530,
42,106,96,0,87,87,25,270.92355454107746,,,,,,,,270.9145509580849,270.92355454107746,271.91223845805507,271.91776908305474,273.84784158307593,l,1.928561000037007,None,muskan_final,001,2023-11-23_14h57.08.258,experiment,2023.2.2,119.99700097411905,2023-11-23 14h59.41.885205 +0530,
46,87,129,0,88,88,73,273.86321366601624,,,,,,,,273.8484877080191,273.86321366601624,274.845715790987,274.85238879104145,279.92019558302127,l,5.064119708957151,None,muskan_final,001,2023-11-23_14h57.08.258,experiment,2023.2.2,119.99700097411905,2023-11-23 14h59.41.885205 +0530,
71,83,62,0,89,89,86,279.93413441604935,,,,,,,,279.92079241608735,279.93413441604935,280.92107179097366,280.9293452909915,282.53081779100467,t,1.600367832928896,None,muskan_final,001,2023-11-23_14h57.08.258,experiment,2023.2.2,119.99700097411905,2023-11-23 14h59.41.885205 +0530,
86,118,108,0,90,90,45,282.5457318330882,,,,,,,,282.53154566604644,282.5457318330882,283.52920541597996,283.5352382910205,285.6371879579965,l,2.095260249916464,None,muskan_final,001,2023-11-23_14h57.08.258,experiment,2023.2.2,119.99700097411905,2023-11-23 14h59.41.885205 +0530,
26,79,113,0,91,91,88,285.6512197080301,,,,,,,,285.6379026250215,285.6512197080301,286.63844612508547,286.6453984580003,288.28093383298256,l,1.633795417030342,None,muskan_final,001,2023-11-23_14h57.08.258,experiment,2023.2.2,119.99700097411905,2023-11-23 14h59.41.885205 +0530,
67,75,119,0,92,92,5,288.2952870000154,,,,,,,,288.28153404104523,288.2952870000154,289.2795549579896,289.28586133301724,292.187803958077,t,2.898666957975365,None,muskan_final,001,2023-11-23_14h57.08.258,experiment,2023.2.2,119.99700097411905,2023-11-23 14h59.41.885205 +0530,
76,91,118,0,93,93,62,292.202473500045,,,,,,,,292.18850062508136,292.202473500045,293.1881022499874,293.1961260830285,295.9045041659847,t,2.711893790983595,None,muskan_final,001,2023-11-23_14h57.08.258,experiment,2023.2.2,119.99700097411905,2023-11-23 14h59.41.885205 +0530,
8,27,133,0,94,94,75,295.91860350000206,,,,,,,,295.90524095797446,295.91860350000206,296.90535650006495,296.91203554102685,299.06435479107313,t,2.1499047910328954,None,muskan_final,001,2023-11-23_14h57.08.258,experiment,2023.2.2,119.99700097411905,2023-11-23 14h59.41.885205 +0530,
93,156,70,0,95,95,16,299.07923516607843,,,,,,,,299.065052208025,299.07923516607843,300.0630127079785,300.06956262502354,301.80381941597443,l,1.7286472910782322,None,muskan_final,001,2023-11-23_14h57.08.258,experiment,2023.2.2,119.99700097411905,2023-11-23 14h59.41.885205 +0530,
13,86,57,0,96,96,87,301.8177620000206,,,,,,,,301.8044028750155,301.8177620000206,302.7964602910215,302.8130929580657,304.3644454580499,l,1.5551715840119869,None,muskan_final,001,2023-11-23_14h57.08.258,experiment,2023.2.2,119.99700097411905,2023-11-23 14h59.41.885205 +0530,
79,84,131,0,97,97,14,304.3793662909884,,,,,,,,304.3651586250635,304.3793662909884,305.3631434580311,305.3692327910103,308.9818785410607,t,3.6112315839855,None,muskan_final,001,2023-11-23_14h57.08.258,experiment,2023.2.2,119.99700097411905,2023-11-23 14h59.41.885205 +0530,
63,99,57,0,98,98,54,308.99772337498143,,,,,,,,308.98258650000207,308.99772337498143,309.9800272079883,309.9962323750369,314.2713132080389,l,4.279243124998175,None,muskan_final,001,2023-11-23_14h57.08.258,experiment,2023.2.2,119.99700097411905,2023-11-23 14h59.41.885205 +0530,
